Folder: EstraPy/example/Fe

Note: README.md
# EstraPy2

Read the documentation at [https://ramsteak.github.io/EstraPy2/](https://ramsteak.github.io/EstraPy2/)

File: As_200e_38_01.xdi
# XDI/1.0 GSE/1.0
# Scan-start_time: 2024-10-06T10:33:36
# Column.1: energy eV
# Column.2: I0_eh2
# Column.3: I1_eh2
# Column.4: IX_eh2
# Column.5: IR_eh2
# Column.6: c8
# Column.7: c9
# Column.8: fluo01
# Column.9: fluo02
# Column.10: fluo03
# Column.11: fluo04
# Column.12: fluo05
# Column.13: fluo06
# Column.14: fluo07
# Column.15: fluo08
# Column.16: fluo09
# Column.17: fluo10
# Column.18: fluo11
# Column.19: fluo12
# Column.20: fluo13
# Column.21: I0_eh1
# Column.22: I1_eh1
# Column.23: IX_eh1
# Mono.name: Si 111
# Mono.d_spacing: 3.134692
# Mono.notes: LNT cooled
# Beamline.name: BM08-LISA
# Facility.name: ESRF
# Facility.xray_source: Bending magnet
# ---------
# BraggEnergy I0_eh2 I1_eh2 IX_eh2 IR_eh2 c8 c9    fluo01   fluo02    fluo03 fluo04   fluo05   fluo06   fluo07   fluo08   fluo09    fluo10   fluo11   fluo12 fluo13 I0_eh1 I1_eh1 IX_eh1
 11725.6  87426 172532  38791    0  0  0  852.662  1503.02  927.95    0  1313.75  1317.94  1660.34  1268.09  1475.05  1170.16  1650.45  1071.03    0  11370    0 2000029
 11774.9  87019 174151  38829    0  0  0  941.164  1602.57  932.13    0  1336.38  1402.67  1673.41  1414.33  1631.65  3734.29  1711.08  1119.66    0  11261    0 2000028
 11824.5  86556 175598  38850    0  0  0  1098.54  2116.72  1109.47    0  1811.58  1787.74  2102.95  1888.05  1972.34  2292.06  2169.11  1263.04    0  11184    0 2000029
 11859.6  86025 176016  38709    0  0  0  3133.07  5988.92  3052.26    0  5096.67  5457.13  5784.84  5489.19  5817.48  2425.23  6358.34  2923.33    0  11110    0 2000028
 11861.6  85925 175800  38703    0  0  0  3768.59  7067.18  3604.83    0  6093.68  6315.96  6676.74  6477.32  6911.82  3364.33  7331.44  3282.29    0  11136    0 2000028
 11863.6  86087 176052  38732    0  0  0  4549.74  8793.22  4491.94    0  7578.02  7877.09  8279.63  8103.62  8348.28  3537.53  9185.29  4018.87    0  11147    0 2000028
 11865.5  86055 175877  38804    0  0  0  5993.62 11388.6  5872.13    0  9808.48 10347.1 10651.8 10544.3 10816.2  3904.57 12046.2  5062.21    0  11147    0 2000028
 11867.5  86004 175491  38746    0  0  0  8615.88 16369.1  8462.36    0 14136.5 15043.2 15154.1 15485.5 15583.6  5695.67 17209.1  7153.74    0  11143    0 2000028
 11869.4  86012 174855  38831    0  0  0 14731.2 27804.9 14261.6    0 24147.2 25320.8 25693.3 26313 26744.5  4405.4 29011.9 12008.4    0  11142    0 2000029
 11871.4  85970 172154  38763    0  0  0 36557.8 69816.8 36521.7    0 61328.4 65450.6 64229.3 66333.4 67510.3 10592.2 73665.2 29045.6    0  11137    0 2000027
 11873.4  85919 164509  38550    0  0  0 103066 192930 102247    0 170657 181051 175644 181035 185477 88614.6 198926 84291.8    0  11134    0 2000028
 11875.4  85787 161996  38477    0  0  0 126006 238906 127391    0 213262 222947 220805 224095 227397 18113.5 247009 105073    0  11095    0 2000028
 11877.3  84782 156677  38603    0  0  0 167148 319353 170552    0 279983 295599 292283 295647 298925 151063 327505 141017    0  10951    0 2000028
 11879.3  85286 160420  38705    0  0  0 141225 271597 145545    0 239772 252025 252211 254549 254686 138231 280895 119635    0  11054    0 2000028
 11881.3  85357 164750  38863    0  0  0 97107 190303 100494    0 167812 176030 173102 177594 177921 97672.6 195676 81802.6    0  11065    0 2000029
 11883.4  85776 166049  38886    0  0  0 94028.1 182304 95632.9    0 161498 168917 166251 170568 171158 89229.9 187230 77792.9    0  11115    0 2000029
 11885.4  85721 166192  38819    0  0  0 92917.5 178079 93876.1    0 157613 165784 162490 165952 167858 90463.8 183163 77437.5    0  11113    0 2000028
 11887.3  85666 166455  38797    0  0  0 89693.3 171629 90565.2    0 153008 159277 155656 160820 163170 84395.3 177349 74733.2    0  11104    0 2000028
 11889.3  85584 166563  38643    0  0  0 87832.4 169283 88755.4    0 149620 156432 154399 158467 160408 86189.6 174174 73514.3    0  11094    0 2000029
 11891.2  85451 166372  38331    0  0  0 87458.1 166671 88157.7    0 148799 155642 152072 155497 158362 79966.6 171085 73353.6    0  11073    0 2000028
 11893.3  84921 165490  38383    0  0  0 84044.8 163888 86656.2    0 145241 152766 149027 154055 153899 80619.9 168445 69633.7    0  11004    0 2000028
 11895.2  82176 160259  38779    0  0  0 81383.8 156531 82089.9    0 138079 144601 141816 145505 147072 79593.1 159397 67456.2    0  10671    0 2000028
 11897.2  85739 167512  38981    0  0  0 81357.8 159211 83225.1    0 140430 147897 144707 148577 149703 73104.1 164081 67461.9    0  11098    0 2000027
 11899.2  85709 167636  38952    0  0  0 79984.1 154931 81248.9    0 137212 144859 141016 145337 146153 67288.3 158914 66220.9    0  11098    0 2000028
 11901.2  85636 167751  39004    0  0  0 78873.1 151484 79478.3    0 134847 141028 138169 142223 142771 71652.1 155975 65875.7    0  11084    0 2000028
 11903.2  85582 167935  38986    0  0  0 75176.9 146708 77014    0 130135 136167 134050 137789 138717 72710.7 150874 62684.7    0  11080    0 2000028
 11907  85478 168692  39006    0  0  0 69994.6 133426 70380.8    0 118336 123784 121391 124673 126448 61948.1 137289 57762.3    0  11065    0 2000029
 11912.8  85425 169236  39025    0  0  0 64962 124109 65432.2    0 111287 116326 113968 117006 119496 64006.6 129156 54215.6    0  11054    0 2000028
 11919  85340 168900  38978    0  0  0 67120.2 131026 68630.3    0 115862 121563 118707 123001 123943 64468.4 134887 56162.4    0  11044    0 2000029
 11925.7  85235 168475  38936    0  0  0 71638.7 140263 73151.4    0 122845 130518 126457 130891 130993 67581.7 143526 58905.2    0  11030    0 2000028
 11933  85131 167907  38870    0  0  0 76800 150595 79471.7    0 132075 140090 136861 140944 140434 75522.2 154402 63326.7    0  11014    0 2000029
 11940.6  85087 167555  39011    0  0  0 83621.3 161099 84333.4    0 141373 148719 145749 150075 152543 81115.9 164803 69423.3    0  11009    0 2000028
 11948.7  84985 167413  38908    0  0  0 85296.1 165210 86268.5    0 145647 153544 150468 154628 155777 83514 170074 70132    0  10991    0 2000028
 11957.3  84886 167620  38957    0  0  0 86813.7 164441 86547.2    0 145812 154129 150531 153950 157186 79148.3 168567 71798    0  10977    0 2000028
 11966.5  84788 167830  38995    0  0  0 84506.9 163034 86480.4    0 144115 151556 149813 152874 153686 72903.9 167843 69886.4    0  10958    0 2000028
 11976.1  84656 168025  38781    0  0  0 84162.5 162791 85199.7    0 143816 151479 147524 152209 153303 77367.3 166034 70041.1    0  10945    0 2000028
 11986.4  84160 167665  38807    0  0  0 80699.8 157071 82908.9    0 138495 146168 143418 148144 148741 76034.8 160665 66548.1    0  10877    0 2000028
 11997.1  84356 168735  38740    0  0  0 79950 154033 80883.3    0 136044 143186 140027 144295 146049 65750.1 158867 66562.5    0  10860    0 2000027
 12008.2  84224 168934  38662    0  0  0 80405.6 153177 81133.5    0 136271 143009 139573 143992 145422 74262.5 157314 66225.1    0  10870    0 2000028
 12019.8  84082 168902  38558    0  0  0 81567.6 156105 82151.8    0 139041 146078 142359 147580 148316 76042.6 161773 67675.7    0  10865    0 2000028
 12031.8  83941 168906  38599    0  0  0 84136.7 160236 84590.5    0 142589 149897 146029 150345 153198 76602.4 165141 70803.8    0  10842    0 2000028
 12044.2  83840 169075  38526    0  0  0 83168.1 163206 85646.6    0 145196 151437 148568 152547 153115 75985.4 166848 69178.4    0  10822    0 2000029
 12057.1  83689 169270  38483    0  0  0 85834.1 165215 86833.9    0 145906 153491 149605 154356 156564 72909.8 169292 71399.9    0  10803    0 2000027
 12070.4  83537 169428  38324    0  0  0 85033.2 165154 86377.7    0 146326 154632 149594 154885 156011 56949.6 170194 71243.5    0  10775    0 2000027
 12083.9  83382 169676  38249    0  0  0 86856.1 165045 87231.4    0 146002 153625 149756 155125 156149 61488.2 169491 71550    0  10764    0 2000028
 12098.4  83204 169922  38148    0  0  0 86539.3 165714 86736.9    0 146936 154079 151160 155776 157308 78950.4 170605 72076.8    0  10741    0 2000029
 12113.1  83030 170239  38188    0  0  0 84720.9 164258 86648.5    0 144778 152696 150245 154458 155145 72406.6 169443 70933.5    0  10710    0 2000028
 12128.4  82848 170462  38003    0  0  0 85604.7 165064 86778    0 146143 154063 150545 154666 156289 72757.2 170023 71275.9    0  10683    0 2000029
 12144.3  82643 170637  37874    0  0  0 84405.2 165009 87524.4    0 147031 154463 151118 154808 154898 82224.1 170603 70278.3    0  10651    0 2000029
 12160.6  82498 170946  37795    0  0  0 86206 165605 87345.3    0 147713 154523 151934 155956 156434 82930.3 170514 71285.6    0  10626    0 2000028
 12177.6  82272 171133  37756    0  0  0 87701.3 167187 88274.5    0 147871 155800 152741 155623 159072 70637.2 172366 73104    0  10600    0 2000028
 12195  82126 171492  37663    0  0  0 88159.6 167659 89242.6    0 149331 158038 153968 157676 160771 56374.5 172693 72891.8    0  10530    0 2000028
 12212.8  81942 171832  37666    0  0  0 88689.4 170122 89562    0 150387 158721 155161 159178 161081 74089.2 174382 74115.9    0  10547    0 2000028
 12231.1  81667 171994  37353    0  0  0 87692.7 170499 89896.3    0 150925 158913 154715 159706 160837 30850.7 174365 72593.1    0  10505    0 2000028
 12249.9  81010 171341  36448    0  0  0 85971.9 168863 89586.5    0 148939 156824 153035 157675 157686 42939.6 173151 70829.4    0  10382    0 2000028
 12269.2  81528 173294  37349    0  0  0 89550.6 170172 90460.5    0 151657 159524 155572 160109 161825 14094.8 175289 73916.3    0  10439    0 2000028
 12289.2  81263 173525  37220    0  0  0 87845.1 169918 90132.4    0 151136 158034 155269 160417 160251 41212.7 175573 72729.8    0  10447    0 2000028
 12309.5  80980 173744  37118    0  0  0 89399.6 170951 90588.4    0 152118 158242 155023 160182 161059 59556.9 174974 74317.6    0  10405    0 2000029
 12330.3  80702 173994  36890    0  0  0 88774 171125 90708.7    0 151233 159444 155293 160132 160911 84979.2 175822 73578.1    0  10323    0 2000028
 12351.4  80496 174387  36974    0  0  0 89324 172939 90877.2    0 152722 160878 157413 161490 163158 81619.4 177526 74356.4    0  10288    0 2000028
 12372.9  80248 174716  36898    0  0  0 89610 172723 91594.1    0 152394 161912 157084 161278 163127 28384 178253 74310.4    0  10299    0 2000028
 12395  79903 174852  36692    0  0  0 89254.9 172006 90074.5    0 152319 160140 155058 160203 163673 44043.2 176301 74329.3    0  10221    0 2000028
 12417.7  79637 175212  36587    0  0  0 89757.2 173055 90863.7    0 153305 160912 156847 161938 162598 56613.2 177382 75054.5    0  10184    0 2000028
 12422.3  79596 175301  36502    0  0  0 89728 171893 91363.7    0 153089 161545 157139 162023 162908 53796 177337 74641.7    0  10182    0 2000028

File: As_200e_38_02.xdi
# XDI/1.0 GSE/1.0
# Scan-start_time: 2024-10-06T10:50:55
# Column.1: energy eV
# Column.2: I0_eh2
# Column.3: I1_eh2
# Column.4: IX_eh2
# Column.5: IR_eh2
# Column.6: c8
# Column.7: c9
# Column.8: fluo01
# Column.9: fluo02
# Column.10: fluo03
# Column.11: fluo04
# Column.12: fluo05
# Column.13: fluo06
# Column.14: fluo07
# Column.15: fluo08
# Column.16: fluo09
# Column.17: fluo10
# Column.18: fluo11
# Column.19: fluo12
# Column.20: fluo13
# Column.21: I0_eh1
# Column.22: I1_eh1
# Column.23: IX_eh1
# Mono.name: Si 111
# Mono.d_spacing: 3.134692
# Mono.notes: LNT cooled
# Beamline.name: BM08-LISA
# Facility.name: ESRF
# Facility.xray_source: Bending magnet
# ---------
# BraggEnergy I0_eh2 I1_eh2 IX_eh2 IR_eh2 c8 c9    fluo01   fluo02    fluo03 fluo04   fluo05   fluo06   fluo07   fluo08   fluo09    fluo10   fluo11   fluo12 fluo13 I0_eh1 I1_eh1 IX_eh1
 11725.8  86318 166512  38304    0  0  0  835.406  1585.72  932.674    0  1305.25  1344.21  1598.73  1361.11  1556.86  1236.67  1666.16  1140.68    0  11208    0 2000027
 11775.1  85900 168073  38300    0  0  0  869.964  1705.4  927.207    0  1501.67  1522.77  1698.72  1532.8  1633.67  3409.87  1796.09  1109.71    0  11145    0 2000028
 11824.8  85433 169511  38361    0  0  0  1322.02  2507.18  1265.94    0  1941.98  2135.88  2369.79  2165.24  2373.68  3335.22  2540.56  1327.93    0  11066    0 2000029
 11859.9  84864 169710  38150    0  0  0  4108.05  7795.4  4045.36    0  6595.42  7008.29  7301.77  7267.83  7525.84  3419.12  8094.96  3589.1    0  10988    0 2000028
 11861.9  84889 169703  38160    0  0  0  4967.56  9251.96  4774.27    0  8013.57  8397.74  8578.68  8696.87  9037.81  3527.09  9825.41  4259.09    0  10985    0 2000028
 11863.9  84960 169766  38188    0  0  0  6035.01 11540.9  5940.91    0  9915.76 10688.8 10879 10788.7 11517.3  4207.45 12250  5108.25    0  10995    0 2000028
 11865.9  84943 169535  38248    0  0  0  8209.79 15140.5  7871.57    0 13420.8 13920 14111.1 14424.9 15218.3  674.68 16248.2  6749.66    0  10997    0 2000028
 11867.8  84895 169033  38218    0  0  0 11363.2 22226.3 11567.6    0 19281.6 20489 20593.9 21143 21701.7  8078.43 23353.2  9498.63    0  11015    0 2000028
 11869.8  84909 167939  38236    0  0  0 20465.3 39767 20632.5    0 34882 36581.9 36555.3 37471.9 38336  5410.79 41715.4 16512.1    0  11014    0 2000028
 11871.7  84863 163295  38094    0  0  0 56340 107235 56224    0 95811.6 101656 98027.1 101958 103903 33386.8 111774 44874    0  10968    0 2000028
 11873.7  84820 153185  37998    0  0  0 132730 253718 136772    0 224266 237884 232634 238429 239229 36657.1 263092 107923    0  10960    0 2000028
 11875.7  84647 150816  37919    0  0  0 160373 302857 161927    0 268094 282801 277566 281401 286427 50154.1 312010 134899    0  10938    0 2000028
 11877.7  83696 143005  38068    0  0  0 225156 425268 230259    0 371254 394343 383685 391916 398963 87312 428608 190798    0  10863    0 2000028
 11879.7  84283 150651  38275    0  0  0 165281 316749 170364    0 278182 296837 289348 295988 298576 140769 326098 140355    0  10933    0 2000028
 11881.7  84417 155613  38365    0  0  0 122226 233849 124711    0 207399 219141 214860 219337 222457 109220 241572 102991    0  10950    0 2000028
 11883.7  84696 156642  38336    0  0  0 115775 225383 120586    0 199112 208943 206988 211097 210250 107181 231606 95864.7    0  10941    0 2000028
 11885.7  84644 156960  38317    0  0  0 114246 220710 117766    0 194644 205605 200151 205230 206878 90352.9 226188 95230.4    0  10975    0 2000028
 11887.7  84584 157314  38294    0  0  0 110565 213005 113249    0 187083 198315 194355 199210 199820 101917 218313 91461.9    0  10944    0 2000029
 11889.7  84501 157380  38178    0  0  0 111631 211103 111870    0 187412 197115 192697 197944 201044 91312.2 217907 92701.3    0  10917    0 2000028
 11891.6  84333 157195  37757    0  0  0 109354 209945 111645    0 185158 194570 191774 195559 198025 46059.8 214743 91099.2    0  10947    0 2000028
 11893.6  83533 155982  37999    0  0  0 107174 202729 107347    0 179738 189616 185121 190077 193521 90927.4 209778 88671.3    0  10837    0 2000028
 11895.6  81749 152964  38354    0  0  0 100580 193355 103120    0 171927 180497 176313 180654 182868 83782.8 199079 82999.5    0  10630    0 2000028
 11897.7  84719 158855  38531    0  0  0 102688 196755 103913    0 173326 183194 177404 183780 186540 93048.9 201596 85319.5    0  10981    0 2000029
 11899.7  84636 159018  38551    0  0  0 99324.8 192303 101789    0 169696 179305 175583 180520 181705 94170.7 197647 82190.7    0  10967    0 2000028
 11901.6  84572 159262  38559    0  0  0 96228.7 186688 99008    0 165122 173793 168981 175509 175521 89276.1 191775 79761.6    0  10961    0 2000027
 11903.6  84520 159592  38578    0  0  0 92809.3 177896 94409.1    0 157789 167361 162572 167374 168773 86280.7 183632 77693.6    0  10951    0 2000028
 11907.5  84376 160404  38511    0  0  0 83813.9 162329 86355.1    0 144010 152918 148130 152496 154398 79555.3 167305 69860.4    0  10933    0 2000028
 11913.3  84349 161104  38559    0  0  0 80104.5 152969 80030.1    0 136066 142805 139112 142922 146081 74004.8 157833 66604.2    0  10927    0 2000028
 11919.6  84243 160663  38456    0  0  0 83621.3 160012 84189.7    0 141280 148725 144075 150035 152542 26328.3 164153 69332.9    0  10919    0 2000028
 11926.3  84131 160030  38388    0  0  0 88377.1 169871 89908.5    0 150146 158190 153719 159425 161452 44061.1 174496 73883.7    0  10898    0 2000029
 11933.5  84019 159331  38307    0  0  0 93845.4 182237 97089    0 161022 169943 165373 170916 171833 88530.8 186264 77608.9    0  10886    0 2000029
 11941.2  83982 158801  38354    0  0  0 101436 195587 104033    0 172616 182717 177556 181941 184464 94553.8 200562 83547.1    0  10878    0 2000029
 11949.3  83887 158675  38274    0  0  0 104052 199729 106171    0 176785 186054 182143 186621 189063 97983.8 205986 87377.4    0  10856    0 2000028
 11957.9  83792 158922  38245    0  0  0 103005 198300 105225    0 175235 185116 180402 185900 188508 98811.8 203547 85121.2    0  10850    0 2000028
 11967.1  84235 160224  38468    0  0  0 106015 199523 105795    0 176524 186177 181406 186572 190263 84720.8 203602 87365.5    0  10903    0 2000028
 11976.8  86028 164280  38950    0  0  0 104177 200633 106904    0 178577 189752 184370 189722 190821 63324.8 208299 87464.7    0  11111    0 2000029
 11987.1  86170 165353  39232    0  0  0 101943 194723 104561    0 172962 183286 177885 183217 185615 27406.5 200893 85004.9    0  11116    0 2000028
 11997.7  86735 167237  39357    0  0  0 98526.3 193127 102046    0 171245 180696 175323 180578 181910 53402.9 198181 83566    0  11179    0 2000028
 12008.9  86585 167392  39250    0  0  0 100101 192905 101765    0 170885 180050 174591 180413 182714 31739 197776 83399.1    0  11161    0 2000028
 12020.4  86435 167362  39081    0  0  0 104076 196059 103787    0 173451 183149 178068 183183 186093 57073.9 201143 85894.5    0  11138    0 2000028
 12032.4  86294 167326  39076    0  0  0 105062 200743 106699    0 177301 185534 181863 187061 188912 48507.7 205922 86586.3    0  11121    0 2000028
 12044.8  86175 167413  39045    0  0  0 107815 204281 108644    0 181768 191273 185629 191651 194991 97156.7 210526 89805.7    0  11102    0 2000028
 12057.7  86019 167628  38978    0  0  0 106297 205436 108843    0 181555 191775 186880 193120 193791 82719.1 210695 88979.9    0  11079    0 2000029
 12070.9  85856 167842  38905    0  0  0 106944 207038 110068    0 182752 192493 188496 192661 195013 93759.1 212333 89271.6    0  11059    0 2000028
 12084.5  85702 168107  38807    0  0  0 106557 205851 108574    0 182038 192231 187381 191955 193801 14139.8 210320 89888    0  11036    0 2000028
 12098.9  85525 168433  38672    0  0  0 107823 205095 109046    0 182141 191965 187594 192477 194508 94215.8 212008 89450.7    0  11004    0 2000028
 12113.6  85289 168650  38747    0  0  0 108066 204968 108799    0 182228 191251 186755 191592 195970 52667.4 211062 90752.6    0  10975    0 2000029
 12129  85162 169080  38543    0  0  0 105877 204164 108045    0 180761 190808 185646 189821 191660 21648.4 209352 88332    0  10953    0 2000028
 12144.8  84848 169063  38514    0  0  0 106071 203918 109245    0 180193 190213 185323 190642 193121 45160.4 209684 88484.6    0  10913    0 2000029
 12161.1  84807 169613  38381    0  0  0 106037 205465 109083    0 182586 191439 186940 192046 194432 90171.3 211131 89343.5    0  10904    0 2000029
 12178.1  84518 169653  38260    0  0  0 107820 207962 110338    0 182716 193913 187936 195085 195295 58390.4 211902 89461.7    0  10860    0 2000028
 12195.6  84454 170238  38293    0  0  0 108513 207677 110209    0 184508 193538 189339 194509 196944 21249.4 213177 90687.1    0  10851    0 2000028
 12213.3  84238 170536  38262    0  0  0 110673 209675 111198    0 185032 195422 190426 195102 199841 101521 215627 92608.8    0  10820    0 2000028
 12231.5  83957 170697  38089    0  0  0 109488 210497 111815    0 185485 196425 191063 195359 199428 100743 216083 91316    0  10782    0 2000028
 12250.3  83243 169979  37052    0  0  0 107648 208877 111224    0 183747 193805 188730 193529 196841 87687.9 213966 90341    0  10647    0 2000029
 12269.5  83825 172065  38109    0  0  0 109907 211297 111733    0 184974 196318 192014 196696 199854 74536.7 214752 91452.2    0  10743    0 2000028
 12289.5  83543 172300  38044    0  0  0 108029 209631 111775    0 184326 195606 190958 195550 196225 27542.5 215833 90525.2    0  10694    0 2000028
 12309.8  83266 172560  37921    0  0  0 110432 210833 112301    0 186495 196630 192131 196303 199788 99817 215814 93377    0  10674    0 2000028
 12330.5  82964 172813  37703    0  0  0 109793 211283 112687    0 186273 197387 192420 197047 198966 103142 216819 92343.8    0  10637    0 2000028
 12351.7  82768 173236  37885    0  0  0 109848 211432 113197    0 187831 197707 193314 198911 200611 92378.3 218353 92573.7    0  10597    0 2000028
 12373.2  82507 173548  37818    0  0  0 109452 210900 113060    0 187068 197064 192913 197173 198675 80438.4 218480 91407.6    0  10569    0 2000028
 12395.3  82161 173752  37660    0  0  0 110739 212311 112687    0 188493 198379 193734 197376 199370 99044.7 218980 91214.6    0  10512    0 2000029
 12417.9  81891 174114  37568    0  0  0 112185 214112 113493    0 188517 199440 194008 199787 202049 36160.8 219098 93746    0  10482    0 2000028
 12422.5  81847 174201  37502    0  0  0 112647 212422 113006    0 187223 199073 193295 198151 200886 22662.7 218439 93221.5    0  10476    0 2000029