Folder: EstraPy/example/Fe (part 4)

File: Fe_200_05_02.xdi
# XDI/1.0 GSE/1.0
# Scan-start_time: 2024-10-02T19:47:11
# Column.1: energy eV
# Column.2: I0_eh2
# Column.3: I1_eh2
# Column.4: IX_eh2
# Column.5: IR_eh2
# Column.6: c8
# Column.7: c9
# Column.8: fluo01
# Column.9: fluo02
# Column.10: fluo03
# Column.11: fluo04
# Column.12: fluo05
# Column.13: fluo06
# Column.14: fluo07
# Column.15: fluo08
# Column.16: fluo09
# Column.17: fluo10
# Column.18: fluo11
# Column.19: fluo12
# Column.20: fluo13
# Column.21: I0_eh1
# Column.22: I1_eh1
# Column.23: IX_eh1
# Mono.name: Si 111
# Mono.d_spacing: 3.134692
# Mono.notes: LNT cooled
# Beamline.name: BM08-LISA
# Facility.name: ESRF
# Facility.xray_source: Bending magnet
# ---------
# BraggEnergy I0_eh2 I1_eh2 IX_eh2 IR_eh2 c8 c9  fluo01  fluo02   fluo03 fluo04  fluo05  fluo06  fluo07  fluo08  fluo09   fluo10  fluo11  fluo12 fluo13 I0_eh1 I1_eh1 IX_eh1
  6969.77 1119733 185005 392499    0  0  0 1864.31 1715.42 1179.57    0 1781.52 1477.91 2318.71 1330.65 2817.83 4441.43 2015.38 2855.67    0 605347  1753 5000068
  7009.42 1125760 194575 412712    0  0  0 1563.58 1509.32 973.48    0 1527.51 1310.3 2038.82 1327.05 2443.27 2220.67 1725.06 2614.21    0 606982    0 5000068
  7049.29 1131543 205258 435265    0  0  0 1485.88 1488.44 896.476    0 1433.13 1103.65 1898.35 1194.53 2126.22 2019.16 1603.89 2499.61    0 608441   921 5000069
  7088.98 1137013 216208 456215    0  0  0 1258.29 1426.63 790.68    0 1269.75 1063.56 1946.58 1141.38 1891.8  0.000000 1529.2 2279.95    0 609526  1134 5000068
  7109.61 1139383 221293 431610    0  0  0 1271.23 1396.92 792.987    0 1316.58 1046.07 1866.81 1198.91 1928.95 978.132 1540.51 2257.88    0 609089  1167 5000069
  7110.77 1138793 220745 389015    0  0  0 1483.29 1428.06 722.684    0 1283.4 1086.51 1952.42 1211.09 1981.17 128.612 1580.84 2247.1    0 607572   629 5000069
  7111.92 1137959 220312 342299    0  0  0 1462.59 1479.1 806.733    0 1400.86 1208.59 2008.57 1319.95 2172.46 506.503 1629.48 2196.93    0 605003  2239 5000068
  7113.11 1137046 220024 316008    0  0  0 1426.97 1586.79 874.517    0 1458.06 1317.6 2146.03 1396.13 2184.73 229.01 1846.84 2241.2    0 602284  1494 5000069
  7114.28 1136510 220046 300728    0  0  0 1457.28 1722.37 906.516    0 1505.7 1415.13 2214.73 1519.4 2186.34 1023.35 1896.22 2169.72    0 600702   961 5000068
  7115.43 1136273 220328 293893    0  0  0 1493.38 1756.98 927.292    0 1648.1 1429.87 2146.23 1644.68 2337.94  61.9592 1898.06 2320.76    0 599924  1455 5000068
  7116.63 1136040 220305 283849    0  0  0 1556.27 1744.16 895.765    0 1525.83 1449.49 2177.88 1671.75 2353.05 117.098 1908.16 2263.86    0 598960   826 5000068
  7117.79 1135680 220239 261714    0  0  0 1439.48 1801.98 909.367    0 1566.24 1453.86 2147.86 1676.09 2348.83 1477.56 1969.02 2206.28    0 597660   138 5000068
  7118.95 1135273 220184 234689    0  0  0 1420.88 1740.96 997.566    0 1617.76 1453.64 2090.22 1653.19 2148.16 1219.81 2032.46 2195.88    0 596324  1167 5000069
  7120.17 1134853 220009 207833    0  0  0 1487.56 1822.59 948.835    0 1678.84 1570.28 2163.61 1745.99 2503.03 1746.26 2037.56 2294.49    0 594955   250 5000069
  7121.33 1134436 219831 187491    0  0  0 1649.61 1964.49 1066.36    0 1786.85 1643.91 2332.94 1765.15 2420.16 2410.59 2293.59 2303.44    0 593541   73 5000069
  7122.53 1133939 219470 173666    0  0  0 1675.67 2052.35 1097.73    0 1920.77 1804.32 2446.05 1886.55 2616.31 1518.15 2310.47 2252.91    0 591933    0 5000068
  7123.73 1133354 218925 163554    0  0  0 1748.68 2338.07 1129.93    0 1943.09 2031.88 2562.08 2054.85 2807.85 2931.62 2622.21 2225.35    0 590035   568 5000069
  7124.89 1132603 218586 155987    0  0  0 1900.38 2498.85 1271.9    0 2343.5 2270.76 2825.65 2524.32 3103.99 2448.55 3105.81 2340.38    0 587788    0 5000069
  7126.11 1131742 218171 148503    0  0  0 2194.22 2863.36 1456.88    0 2681.91 2578.78 3173.13 2878.1 3510.48 1103.1 3316.08 2465.26    0 585160    0 5000068
  7127.3 1131043 217989 140157    0  0  0 2361.48 3235.03 1668.32    0 2964.58 2996.6 3440.51 3193.41 3803.18 2615.14 3866.32 2504.11    0 582836   264 5000069
  7128.51 1130842 218104 131152    0  0  0 2533.19 3686.71 1900.41    0 3269.13 3397.39 3805 3559.99 4288.42 4127.84 4352.06 2641.52    0 581884   386 5000069
  7129.71 1130651 218415 124536    0  0  0 2860.32 4080.55 2095.09    0 3724.63 3872.63 4338.14 4106.42 4949.22 4052.79 4935.23 2732.85    0 581323    0 5000069
  7130.91 1130112 218139 123525    0  0  0 3041.34 4567.05 2300.72    0 4003.4 4186.93 4425.9 4415.28 5066.37 3008.92 5491.6 2810.38    0 579628   23 5000068
  7132.13 1129543 217678 128780    0  0  0 3155.03 4632.71 2509.54    0 4263.09 4455.96 4793.57 4714.66 5287.69 3696.63 5548.2 2813.27    0 577623    0 5000069
  7133.32 1129285 217683 136310    0  0  0 3129.05 4421.88 2375.08    0 4074.35 4322.88 4840.38 4685.8 5398.58 3141.64 5656.93 2904.66    0 576459    0 5000069
  7134.54 1129422 217856 142066    0  0  0 3137.74 4585.31 2359.58    0 4006.56 4504.93 4672.84 4604.07 5447.68 3056.74 5619.37 2843.54    0 576102    0 5000068
  7135.74 1129682 218059 144818    0  0  0 3072.27 4540.68 2363.28    0 4184.09 4475.86 4642.09 4621.31 5245.31 4045.51 5541.18 2973.58    0 576183    0 5000068
  7136.94 1129939 218413 144798    0  0  0 3025.95 4620.55 2290.58    0 3960.48 4301.58 4559.15 4671.28 5235.99 3430.37 5359.58 2787.8    0 576387    0 5000069
  7138.17 1130299 218530 142584    0  0  0 3040.73 4438.64 2317.93    0 4040.94 4367.83 4678.06 4498.15 5239.63 4287.07 5432.42 2723.55    0 576654    0 5000068
  7139.35 1130579 218833 139980    0  0  0 2923.84 4419.73 2224.72    0 3852.73 4158.76 4435.12 4358.45 5063.14 2661.57 5309.19 2724.29    0 576887    0 5000068
  7140.6 1130921 219078 138387    0  0  0 2931.4 4324.13 2235.89    0 3684.64 4032.41 4480.2 4301.79 4978.69 4797.62 5309.48 2780.06    0 577092    0 5000069
  7141.8 1135038 223024 140778    0  0  0 2894.55 4262.69 2302.13    0 3715.1 4057.09 4461.88 4208.66 4937.76 4655.51 5173.77 2772.15    0 587018   233 5000069
  7142.99 1140592 228139 144587    0  0  0 2934.54 4239.23 2240.68    0 3885.04 4001.7 4523.56 4265.19 4838.94 4915.23 5056.47 2812.6    0 600930   738 5000069
  7144.25 1141580 229523 145769    0  0  0 2826.24 4161.44 2181.5    0 3812.93 3986.67 4418.02 4307.47 4705.55 4224.58 4975.05 2754.83    0 603246  1068 5000069
  7145.43 1141891 229989 144653    0  0  0 2789.43 4052.03 2069.84    0 3626.92 3885.82 4198.67 4041.7 4589.78 4986.82 4834.08 2663.78    0 603798  1290 5000068
  7146.65 1142279 230490 142010    0  0  0 2691.41 4041.62 2069.55    0 3735.01 3854.59 4156.96 3977.58 4648.52 4818.06 4647.34 2730.05    0 604340  1850 5000069
  7147.86 1142670 230885 138785    0  0  0 2671.87 3963.87 2051.39    0 3639.82 3817.09 4116.45 3974.14 4553.56 4460.76 4659.24 2645.49    0 604892  2177 5000068
  7149.04 1143021 231260 136232    0  0  0 2674.66 3972.95 2048.34    0 3563.22 3658.69 4042.93 3807.55 4464.6 4891.94 4574.04 2587.95    0 605335  2482 5000068
  7150.24 1143288 231547 134676    0  0  0 2549.28 3956.85 1946.63    0 3410.96 3617.09 4020.45 3679.29 4421.91 4470.04 4575.67 2638.91    0 605573  2984 5000069
  7151.43 1143480 231710 133643    0  0  0 2539.59 3770.31 1985.12    0 3399.99 3609.57 3968.12 3761.85 4451.61 4204.94 4616.65 2647.29    0 605621  3751 5000069
  7152.63 1143637 231903 133023    0  0  0 2484.54 3839.33 2014.16    0 3373.16 3526.67 4005.2 3864.24 4347.44 4814.93 4538.1 2728.94    0 605569  3754 5000069
  7153.84 1143840 231893 132811    0  0  0 2507.29 3778.06 1984.05    0 3265.4 3468.14 3958.44 3778.6 4349.18 4034 4407.65 2541.32    0 605489  3130 5000069
  7163.61 1144404 234597 138071    0  0  0 2318.38 3526.55 1787.34    0 3298.63 3162.08 3838.61 3506.25 4049.26 4992.55 4191.66 2328.42    0 603679  1287 5000068
  7174.73 1145088 236718 149307    0  0  0 2504.69 3923.35 1969.47    0 3547.97 3779.89 4066.75 3938.63 4471.91 5741.83 4642.38 2479.99    0 601429  2056 5000069
  7187.17 1147063 240627 151310    0  0  0 2647.86 4173.43 2138.1    0 3642.18 3915.75 4261.24 4198.48 4524.49 6055.12 4823.25 2591.78    0 602039  2631 5000069
  7200.79 1149401 245562 153856    0  0  0 2664.54 4150.16 2107.83    0 3819.57 3936.16 4315.4 4264.07 4521.78 5464.29 4980.7 2499.38    0 603848  2455 5000069
  7215.42 1151028 250064 138052    0  0  0 2571.14 4176.93 2085.5    0 3590.61 3782.43 4288.73 4164.69 4385.72 6309.05 4870.31 2344.51    0 603180  1862 5000069
  7231.29 1153362 255544 162294    0  0  0 2468.1 4101.18 2111.29    0 3563.13 3878.56 4180.2 4067.28 4340.6 3652.78 4787.78 2324.5    0 603879  2785 5000069
  7248.45 1155347 261191 168691    0  0  0 2527.16 4211.16 2094.96    0 3783.06 3991.47 4352.83 4106.8 4495.12 6631.71 5024.74 2366.52    0 603360  2863 5000069
  7266.89 1158172 268050 169308    0  0  0 2627.82 4349 2211.79    0 3902.93 4067.57 4590.42 4516.98 4672.06 6098.39 5137.03 2303.07    0 604591  2518 5000069
  7286.6 1160585 274869 155928    0  0  0 2594.31 4518.73 2262.67    0 3903.22 4174.01 4564.53 4415.47 4551.87 5049.65 5348.11 2206.76    0 604360  2851 5000068
  7307.58 1163462 282324 187878    0  0  0 2544.08 4300.09 2227.88    0 3865.5 4209.66 4383.62 4409.54 4470.7 6455.51 5366.83 2232.38    0 604864  3485 5000068
  7329.82 1163522 286956 191085    0  0  0 2566.63 4471.45 2186.19    0 3965.16 4075.94 4538.71 4364.6 4475.83 6609.96 5180.73 2234.38    0 597708  3032 5000069
  7353.3 1169669 299342 186013    0  0  0 2538.79 4677.81 2293.46    0 4019.94 4352.42 4761.44 4684.23 4590.35 6400.85 5520.8 2104.86    0 605577  3317 5000069
  7377.77 1172754 308679 197751    0  0  0 2512.72 4744.97 2425.84    0 4195.86 4276.04 4664.58 4630.03 4704.61 167.877 5404.61 2124.27    0 605725  3160 5000068
  7403.36 1176143 318456 213669    0  0  0 2650.8 4687.89 2249.41    0 4286.01 4484.42 4669.26 4807.25 4903.06 7010.12 5391.03 2109.1    0 605803  3438 5000069
  7429.99 1179651 329371 222194    0  0  0 2777.71 4785.42 2415.65    0 4188.21 4423.3 4763.85 4916.13 4976.56 7299.49 5613.03 2116.55    0 606226  4329 5000068