Folder: EstraPy/example/Fe (part 3)

File: Fe_200_05_01.xdi
# XDI/1.0 GSE/1.0
# Scan-start_time: 2024-10-02T19:22:59
# Column.1: energy eV
# Column.2: I0_eh2
# Column.3: I1_eh2
# Column.4: IX_eh2
# Column.5: IR_eh2
# Column.6: c8
# Column.7: c9
# Column.8: fluo01
# Column.9: fluo02
# Column.10: fluo03
# Column.11: fluo04
# Column.12: fluo05
# Column.13: fluo06
# Column.14: fluo07
# Column.15: fluo08
# Column.16: fluo09
# Column.17: fluo10
# Column.18: fluo11
# Column.19: fluo12
# Column.20: fluo13
# Column.21: I0_eh1
# Column.22: I1_eh1
# Column.23: IX_eh1
# Mono.name: Si 111
# Mono.d_spacing: 3.134692
# Mono.notes: LNT cooled
# Beamline.name: BM08-LISA
# Facility.name: ESRF
# Facility.xray_source: Bending magnet
# ---------
# BraggEnergy I0_eh2 I1_eh2 IX_eh2 IR_eh2 c8 c9  fluo01  fluo02   fluo03 fluo04  fluo05  fluo06  fluo07  fluo08  fluo09   fluo10  fluo11  fluo12 fluo13 I0_eh1 I1_eh1 IX_eh1
  6969.77 1123140 188045 395196    0  0  0 2026.97 1783.9 1187.83    0 1805.49 1516.34 2293.8 1329.8 2965.58 4842.25 2141.2 2885.56    0 615811    0 5000069
  7009.43 1129027 198207 417171    0  0  0 1826.55 1517.99 984.444    0 1627.39 1331 2128.29 1302.83 2616.5 3222.07 1801.73 2704.55    0 617488    0 5000069
  7049.29 1134776 209080 439767    0  0  0 1607.28 1420.54 870.64    0 1293.19 1151.69 2018.96 1190.4 2277.72 3625.46 1622.41 2662.41    0 618977    0 5000069
  7089 1140240 220375 461406    0  0  0 1381.58 1437.2 819.748    0 1313.62 1024.55 1949.56 1138.42 2044.87 3972.58 1513.91 2400.89    0 620107    0 5000068
  7109.59 1142612 225521 436736    0  0  0 1266.22 1424.49 808.01    0 1214.72 1051.43 1936.38 1242.24 1832.12 2117.65 1588.33 2193.79    0 619709    0 5000068
  7110.76 1142075 225047 393811    0  0  0 1219.07 1416.99 795.061    0 1289.79 1119.79 1915.14 1226.27 1852.52 3860.96 1605.16 2133.78    0 618174    0 5000069
  7111.9 1141281 224405 345941    0  0  0 1314.27 1552.06 799.54    0 1446.88 1186.25 2078.18 1362.69 1890.3 3131.82 1749.36 2267.88    0 615473    0 5000068
  7113.09 1140402 224039 319249    0  0  0 1534.89 1586.29 932.219    0 1532.21 1302.03 2134.23 1525.22 2234.07 3297.88 1790.77 2303.44    0 612819    0 5000068
  7114.26 1139931 223893 303297    0  0  0 1463.96 1715.09 906.482    0 1604.71 1350.99 2209.18 1532.28 2270.91 2880.53 2010.48 2288.24    0 611228    0 5000069
  7115.41 1139742 223900 295881    0  0  0 1391.68 1832.25 945.304    0 1546.01 1434.09 2281.5 1741.08 2196.87 3116.21 1996.54 2153.46    0 610400    0 5000069
  7116.62 1139543 223738 285433    0  0  0 1403.22 1795.56 891.544    0 1632.34 1447.4 2214.91 1666.95 2201.58 2661.85 2084.52 2177.38    0 609434    0 5000068
  7117.77 1139262 223431 262861    0  0  0 1363.75 1830.99 946.62    0 1564.61 1470 2273.61 1654.35 2245.06 4527.44 2017.62 2185.98    0 608158    0 5000069
  7118.94 1138934 223085 235194    0  0  0 1604.94 1880.76 995.266    0 1660.91 1463.99 2282.93 1648.39 2330.45 380.044 2066.76 2261.78    0 606807    0 5000068
  7120.16 1138605 222634 207898    0  0  0 1487.75 1892.27 996.893    0 1742.27 1529.41 2317.95 1850.1 2424.93 1222.74 2229.52 2267.88    0 605427    0 5000068
  7121.31 1138203 222174 187213    0  0  0 1480.83 1975.24 1011.64    0 1795.26 1595.25 2424.85 1854 2316.2 1903.81 2288.87 2244.29    0 603980    0 5000068
  7122.51 1137741 221627 173180    0  0  0 1506.77 2124.27 1054.01    0 1894.05 1777.88 2514.15 1976.42 2478.26 1831.61 2404.03 2172.33    0 602352    0 5000068
  7123.71 1137206 220843 162738    0  0  0 1782.37 2326.64 1258.92    0 2057.8 1986.1 2658.57 2174.9 2890.62 1869.75 2679.01 2286.81    0 600407    0 5000068
  7124.88 1136512 220041 154670    0  0  0 1940.93 2681.72 1370.45    0 2320.06 2227.32 2941.02 2478.21 3095.26 1930.85 2928.6 2365.07    0 598077    0 5000068
  7126.1 1135729 219263 146956    0  0  0 2089.33 2915.87 1575.97    0 2645.94 2601.42 3115.7 2833.83 3403.44 2147.47 3430.89 2400.34    0 595425    0 5000069
  7127.29 1135083 218677 138232    0  0  0 2280.98 3328.32 1767.59    0 2900.89 3013.33 3570.57 3230.94 3913.39 2178.78 3845.85 2441.59    0 592955    0 5000069
  7128.5 1134903 218586 129172    0  0  0 2752.87 3872.99 1959.47    0 3423.89 3553.83 3922.67 3831.16 4385.64 3340.4 4673.5 2632.91    0 591947    0 5000069
  7129.7 1134777 218703 122491    0  0  0 2899.92 4206.32 2147.57    0 3762.52 3938.61 4423.67 4235.53 4981.76 3113.07 5102.96 2750.61    0 591397    0 5000069
  7130.9 1134253 218321 121420    0  0  0 3050.48 4445.33 2292.44    0 3989.8 4174.26 4673.64 4466.53 5186.47 5279.37 5423.88 2743.32    0 589670    0 5000069
  7132.13 1133626 218021 126764    0  0  0 3163.75 4852.61 2505.83    0 4185.77 4498.11 4864.65 4713.87 5392.62 4032.25 5773.2 2775.81    0 587611    0 5000069
  7133.31 1133239 218411 134500    0  0  0 3264.56 4847.07 2510.76    0 4288.6 4585.02 4836.54 4829.15 5507.22 4359.56 5637.42 2872.75    0 586295    0 5000068
  7134.52 1133244 218833 140452    0  0  0 3212.37 4648 2518.04    0 4235.22 4439.51 4820.84 4769.08 5412.54 2794.43 5752.57 2840.85    0 585892    0 5000069
  7135.72 1133420 219327 143495    0  0  0 3074.18 4774.91 2421.2    0 4079.34 4440.15 4825.87 4784.5 5367.47 4188.69 5538.45 2858.91    0 585899    0 5000068
  7136.92 1133721 219589 143471    0  0  0 3057.26 4574.53 2317.56    0 4128.52 4480.96 4762.35 4652.99 5245.19 2906.8 5464.64 2800.25    0 586082    0 5000069
  7138.14 1134040 219892 141419    0  0  0 3034.75 4699.6 2390.86    0 4207.87 4381.42 4879.82 4648.02 5175.78 3204.8 5633.41 2809.52    0 586341    0 5000069
  7139.33 1134264 220456 139138    0  0  0 3090.89 4592.24 2279.76    0 4008.3 4448.67 4706.96 4621.66 5111.59 4124.76 5386.91 2904.54    0 586561    0 5000069
  7140.56 1134512 221096 137884    0  0  0 3018.66 4349.23 2246.78    0 3882.83 4139.62 4465.52 4336.96 4940.81 3904.69 5280.05 2813.63    0 586755    0 5000068
  7141.77 1134748 221761 138310    0  0  0 2813.26 4231.12 2262.8    0 3856.81 4039.43 4388.37 4313.13 4756.35 5485.34 5205.19 2697.26    0 587015    0 5000069
  7142.95 1135060 222353 139520    0  0  0 2735.47 4249.88 2146.24    0 3718.4 3996.95 4371.87 4282.24 4886.2 3598.78 4979.34 2572.76    0 587378    0 5000069
  7144.21 1135355 223302 140503    0  0  0 2744.4 4038.46 2149.34    0 3749.75 3822.78 4217.39 4041.17 4760.87 5751.79 4839.76 2572.68    0 587782    0 5000069
  7145.39 1135737 223995 139768    0  0  0 2765.47 3915.46 2060.96    0 3494.45 3775.8 4238.29 4007.77 4628.01 6016.33 4801.4 2598.76    0 588340    0 5000069
  7146.6 1136082 224831 137666    0  0  0 2531.56 3955.7 1988.49    0 3516.21 3687.25 4176.98 3894.58 4529.48 4076.58 4653.96 2470.44    0 588896    0 5000068
  7147.82 1136426 225524 134736    0  0  0 2584.01 3892.7 1993.38    0 3358.66 3562.61 4059.84 3863.14 4448.62 4915.18 4529.94 2480.72    0 589467    0 5000069
  7149 1136745 226042 132337    0  0  0 2568.27 3884.33 1967.3    0 3396.5 3538.04 4074 3831.13 4364.37 5283.19 4487.42 2519.62    0 589918    0 5000068
  7150.2 1137002 226607 131113    0  0  0 2666.87 3760.77 1921.99    0 3243.53 3431.29 3917.81 3640.18 4261.64 4040.57 4458.22 2530.29    0 590187    0 5000069
  7151.39 1137187 227027 130291    0  0  0 2460.21 3805.58 1913.98    0 3317.18 3486.77 3951.33 3729.32 4230.14 5041.76 4365.55 2526.57    0 590252    0 5000069
  7152.59 1137324 227453 129838    0  0  0 2428.27 3801.36 1852.64    0 3268.07 3458.13 3790.52 3674.3 4088.66 5286.42 4402.18 2448.88    0 590128    0 5000069
  7153.8 1137490 227665 129923    0  0  0 2348.53 3590.56 1968.17    0 3300.76 3402.49 3884.82 3666.99 4023.51 4744.58 4292.59 2484.5    0 590054    0 5000069
  7163.56 1138069 230360 135003    0  0  0 2246.82 3397.6 1807.23    0 3104.56 3155.52 3679.19 3434.69 3906.37 5394.42 4189.47 2413.99    0 588468    0 5000069
  7174.68 1138805 232237 145762    0  0  0 2530.42 3789.72 1946.66    0 3309 3565.45 4055.09 3788.49 4229.15 4668.54 4594.13 2435.24    0 586300    0 5000069
  7187.13 1140801 235838 147700    0  0  0 2605.58 4101.5 1998.73    0 3612.52 3672.49 4309.03 4127.68 4453.55 5488 4802.91 2372.91    0 587016    0 5000069
  7200.75 1143207 240896 150248    0  0  0 2518.78 4009 2056.81    0 3633.8 3848.76 4251.8 4067.86 4475.28 5701.78 4871.55 2412.06    0 588723    0 5000068
  7215.4 1144998 244865 134510    0  0  0 2446.2 4058.45 2112.58    0 3511.25 3621.98 4135.38 3949.04 4288.43 4811.3 4585.4 2298.49    0 588160    0 5000068
  7231.29 1147400 249962 157769    0  0  0 2401.36 4100.78 1896.3    0 3485.76 3686.22 4135.95 3856.59 4207.62 7082.67 4733.2 2145.01    0 588861    0 5000069
  7248.46 1149532 254738 163145    0  0  0 2471.25 4153.77 2013.64    0 3604.78 3850.56 4275.77 4145.21 4244.53 3745.92 4856.66 2384.54    0 588425    0 5000068
  7266.91 1152383 261217 163575    0  0  0 2578.99 4293.43 2241.6    0 3784.41 4098.87 4343.28 4384.34 4429.96 5910.48 4967.84 2250.45    0 589552    0 5000069
  7286.63 1154831 267500 150280    0  0  0 2488.14 4279.94 2225.53    0 3900.13 4108.52 4589.51 4303.43 4481.12 4166.54 5006.35 2323.5    0 589337    0 5000069
  7307.59 1157763 274639 180939    0  0  0 2430.97 4364.68 2159.06    0 3925.06 3903.65 4365.18 4354.43 4367.46 5558.73 5009.22 2163.89    0 589875    0 5000068
  7329.83 1157827 278666 183526    0  0  0 2431.34 4390.91 2184.61    0 3904.71 3968.6 4298.1 4355 4363.57 3887.5 5206.65 2011.43    0 582785    0 5000068
  7353.31 1164055 290597 178528    0  0  0 2451.76 4562.87 2146.17    0 3984.14 4293.33 4522.95 4488.48 4576.79 4028.09 5245.46 2111.79    0 590751    0 5000068
  7377.77 1167155 299459 189577    0  0  0 2722.75 4646.89 2287.83    0 4084.14 4242.35 4597.84 4580.64 4523.27 4081.5 5293.03 1993.62    0 590720    0 5000068
  7403.38 1170477 308897 204658    0  0  0 2468.99 4730.35 2323.18    0 4107.82 4155.33 4593.2 4836.27 4709.05 3502.38 5560.52 1948.52    0 590861    0 5000068
  7429.98 1174032 319374 212605    0  0  0 2597.81 4719.24 2348.05    0 4195.65 4498.34 4763.86 4691.05 4608.64 3093.06 5451.76 2033.99    0 591364    0 5000069

File: Fe_200_05_01b.xdi
# XDI/1.0 GSE/1.0
# Scan-start_time: 2024-10-02T20:49:50
# Column.1: energy eV
# Column.2: I0_eh2
# Column.3: I1_eh2
# Column.4: IX_eh2
# Column.5: IR_eh2
# Column.6: c8
# Column.7: c9
# Column.8: fluo01
# Column.9: fluo02
# Column.10: fluo03
# Column.11: fluo04
# Column.12: fluo05
# Column.13: fluo06
# Column.14: fluo07
# Column.15: fluo08
# Column.16: fluo09
# Column.17: fluo10
# Column.18: fluo11
# Column.19: fluo12
# Column.20: fluo13
# Column.21: I0_eh1
# Column.22: I1_eh1
# Column.23: IX_eh1
# Mono.name: Si 111
# Mono.d_spacing: 3.134692
# Mono.notes: LNT cooled
# Beamline.name: BM08-LISA
# Facility.name: ESRF
# Facility.xray_source: Bending magnet
# ---------
# BraggEnergy I0_eh2 I1_eh2 IX_eh2 IR_eh2 c8 c9  fluo01  fluo02   fluo03 fluo04  fluo05   fluo06  fluo07  fluo08  fluo09   fluo10  fluo11  fluo12 fluo13 I0_eh1 I1_eh1 IX_eh1
  6969.76 1119097 187089 407097    0  0  0 1866.68 1630.57 1190.61    0 1825.94 1531.03 2215.4 1406.48 2611.59 2915.48 2103.46 2774.17    0 603779  10863 5000069
  7009.42 1125144 196727 428278    0  0  0 1564.47 1483.98 1090.3    0 1483.16 1245.98 2060.31 1228.53 2219.03 2807.93 1689.2 2587.65    0 605425  10754 5000069
  7049.28 1131028 207128 450246    0  0  0 1450.82 1390.72 783.809    0 1282.55 1109.4 1925.03 1137.1 2113.45 5395.49 1620.32 2527.46    0 606822  11436 5000069
  7088.99 1136521 218138 472125    0  0  0 1281.4 1365.03 773.109    0 1220.86 1031.72 1808.02 1143.55 1851.93 3533.29 1500.92 2206.47    0 608005  11411 5000068
  7104.65 1138522 222410 474852    0  0  0 1252.98 1378.82 743.428    0 1237.45 1117.94 1866.19 1162.51 1811.12 2697.78 1439.11 2108.55    0 608138  12018 5000068
  7105.78 1138606 222487 473211    0  0  0 1278.88 1328.75 773.945    0 1166.47 1086.14 1933.79 1183.9 1837 2345.44 1483.71 2302.6    0 607920  11937 5000068
  7106.98 1138657 222736 471076    0  0  0 1201.54 1429.93 701.729    0 1227.15 997.362 1893.2 1108.68 1779.04 2188.81 1499.41 2109.22    0 607703  10507 5000068
  7108.15 1138643 223079 467073    0  0  0 1124.44 1381.97 766.945    0 1194.26 962.745 1943.63 1167.41 1775.64 2710.35 1483.45 1990.53    0 607374  11598 5000069
  7109.3 1138618 222894 452853    0  0  0 1255.54 1487.67 727.769    0 1226.2 1092.06 1900.23 1189.27 1882.01 2859.27 1551.09 2057.41    0 606836  11746 5000068
  7110.52 1138346 222695 413550    0  0  0 1349.68 1411.07 819.717    0 1264.25 1090.8 1963.79 1211.33 1909.22 1702.82 1656.29 2259.14    0 605757  11146 5000069
  7111.67 1137484 221726 361781    0  0  0 1227.61 1467.61 829.277    0 1337.45 1174.7 2022.66 1300.03 1822.87 3183.43 1677.31 2145.06    0 603340  11404 5000068
  7112.83 1136590 221329 330561    0  0  0 1177.36 1583.7 846.817    0 1422.95 1167.35 1992.24 1428.27 1918.16 1595.57 1908.96 2082.01    0 600519  10927 5000068
  7114.05 1136010 221123 311989    0  0  0 1338.04 1633.67 887.252    0 1547.83 1329.65 2177.36 1516.16 2069.34 1916.46 1904.68 2139.58    0 598664  11118 5000069
  7115.2 1135667 221520 303848    0  0  0 1414.24 1772.85 904.298    0 1634.64 1453.12 2155.12 1540.21 2222.99 2099.53 1967.6 2260.17    0 597736  10368 5000068
  7116.39 1135413 221536 295326    0  0  0 1454.62 1648.96 875.548    0 1567.18 1451 2136.21 1601.04 2208.02 897.736 1981.06 2179.58    0 596831  8519 5000068
  7117.59 1135066 221412 274631    0  0  0 1352.12 1706.89 911.979    0 1624.86 1394.99 2221.06 1637.24 2110.82 1726.26 2027.41 1991.46    0 595580  9471 5000069
  7118.73 1134666 221347 246977    0  0  0 1373.99 1806.8 948.402    0 1611.87 1516.99 2176.49 1637.33 2238.08 2248.53 2006.92 2216.99    0 594235  10080 5000068
  7119.93 1134252 221313 219374    0  0  0 1476.11 1885.78 970.776    0 1653.26 1576.78 2385.22 1708.12 2351.6 1046.27 2031.93 2239.95    0 592898  10930 5000069
  7121.11 1133848 221255 196826    0  0  0 1508.71 1960.92 1025.56    0 1744.98 1643.68 2287.42 1850.54 2321.6 1835.9 2187.45 2179.74    0 591522  10021 5000069
  7122.27 1133388 220880 181430    0  0  0 1465.45 2050.98 1114.53    0 1873.62 1666.87 2438.97 1931.09 2428.42 1958.89 2359.71 2078.26    0 589876  10655 5000069
  7123.5 1132797 220308 170222    0  0  0 1722.9 2179.32 1161.71    0 1990.3 1873.39 2601.56 2182.19 2724.94 1739.01 2552.9 2303.82    0 588081  8709 5000068
  7124.67 1132128 219622 161579    0  0  0 1939.64 2506.06 1356.3    0 2215.01 2248.75 2756.56 2472.92 2991.73 2494.8 2908.45 2326.46    0 586001  9011 5000068
  7125.87 1131355 219093 153951    0  0  0 2038.03 2814.49 1440.38    0 2475.39 2536.57 3101.49 2732.73 3347.96 1303.17 3323.33 2234.61    0 583446  9215 5000068
  7127.09 1130588 218937 145571    0  0  0 2145.57 3157.78 1688.49    0 2820.12 3010.32 3484.09 3170.64 3681.94 428.216 3798.58 2356.28    0 580990  8950 5000069
  7128.27 1131139 219839 136803    0  0  0 2533.88 3697.42 1883.64    0 3250.17 3323.81 3952.8 3526.29 4211.92 949.052 4291.86 2429.01    0 581922  10222 5000068
  7129.47 1137614 226379 132827    0  0  0 2866.96 4166.34 2187.67    0 3700.22 3809.47 4334.51 4080.25 4812.64 380.429 4912.47 2835.35    0 598396  10464 5000068
  7130.67 1139611 228337 131306    0  0  0 3192.71 4638.02 2264.14    0 4029.46 4385.79 4729.37 4715.62 5259.3 614.269 5582.63 2863.77    0 603479  10610 5000068
  7131.87 1138955 228145 136077    0  0  0 3245.28 4864.13 2535.46    0 4173.53 4562.78 4993.04 4759.54 5494.4  90.9946 5594.23 2917    0 601369  10501 5000068
  7133.09 1138568 228019 144016    0  0  0 3200.07 4713.21 2609.6    0 4156.93 4641.18 4803.05 4896.37 5482.77 1810.56 5777.77 2904.12    0 599873  9772 5000068
  7134.29 1138545 228204 150883    0  0  0 3265.53 4905.76 2466.53    0 4187.22 4625.46 4863.71 4780.25 5530.77 1752.26 5671.18 2889.03    0 599358  9925 5000068
  7135.5 1138728 228523 154564    0  0  0 3199.88 4597.91 2552.26    0 4247 4634.35 4780.98 4731.27 5505.23 1692.89 5767.78 2932.57    0 599329  11274 5000068
  7136.69 1138986 228854 155204    0  0  0 3014.01 4689.82 2411.74    0 4203 4613.73 4870.05 4831.64 5382.65 2157.48 5724.44 2854.51    0 599481  10705 5000068
  7137.92 1139273 229401 153570    0  0  0 3121.63 4650.81 2447.7    0 4027.61 4443.2 4689.9 4774.11 5360.14 1054.2 5578.98 2776.56    0 599763  10441 5000069
  7139.15 1139592 229412 150347    0  0  0 3180.97 4684.8 2433.06    0 4187.52 4367.05 4725.45 4589.94 5184.61 1684.73 5590.55 2869.27    0 600059  11012 5000068
  7140.33 1139902 229688 148305    0  0  0 3047.59 4396.24 2358.26    0 4027.83 4272.28 4564.57 4475.29 5221.84 3179.52 5513.27 2834.41    0 600257  10220 5000069
  7141.59 1140187 230169 148223    0  0  0 2926.21 4397.96 2313.09    0 3850.7 4024.08 4553.31 4283.23 5040.39 1759.45 5274.92 2667.61    0 600557  9966 5000068
  7142.76 1140491 230642 149282    0  0  0 2855.54 4214.59 2196.15    0 3770.84 3983.59 4519.09 4138.92 4772.24 1782.22 4961.01 2669.6    0 600880  11348 5000068
  7143.99 1140781 231450 150492    0  0  0 2716.52 4070.44 2083.79    0 3654.97 3918.56 4352.08 4034.24 4638.2 5051.44 4964.54 2627.52    0 601277  11482 5000068
  7145.21 1141157 231871 149639    0  0  0 2872.23 4058.27 2068.43    0 3740.27 3781.28 4296.36 4066.73 4550.79 3293.83 4887.43 2756.44    0 601792  11783 5000069
  7146.39 1141502 232416 147223    0  0  0 2712.94 3995.89 2091.76    0 3566.98 3706.52 4345.61 4032.75 4556.03 3106.1 4647.6 2653.61    0 602330  10338 5000068
  7147.64 1141891 233017 143975    0  0  0 2538.33 3993.76 2096.74    0 3461.25 3666.86 4224.82 3935.79 4460.25 2136.79 4746.65 2519.14    0 602901  10715 5000068
  7148.81 1142271 233302 141058    0  0  0 2588.5 4001.61 2004.4    0 3541.23 3642.53 4046.7 3964.27 4344.43 1811.25 4628.3 2551.38    0 603392  12278 5000069
  7149.98 1142526 233591 139294    0  0  0 2705.56 3948.97 2022.35    0 3406.76 3640.21 4171.07 3755.4 4299.48 3046.45 4458.89 2641.53    0 603691  11556 5000069
  7151.22 1142741 233815 138093    0  0  0 2562.75 3697.87 1912.55    0 3438.34 3606.55 3970.66 3770.82 4366.71 2693.71 4567.89 2599.13    0 603818  12827 5000068
  7152.39 1142885 234080 137423    0  0  0 2585.01 3853.04 1943.6    0 3302.42 3444.43 4053.24 3675.58 4284.61 4669.42 4544.25 2540.27    0 603786  11750 5000068
  7153.61 1143097 233936 136987    0  0  0 2455.13 3904.8 1868.05    0 3431.91 3504.53 3999.05 3714.86 4198.6 3651.23 4445.98 2516.35    0 603730  11547 5000068
  7161 1143689 235812 140369    0  0  0 2331.07 3508.29 1788.67    0 3195.95 3150.33 3799.27 3522.99 4029.03 3738.24 4038.2 2448.05    0 602665  12775 5000069
  7171.81 1144052 237287 147844    0  0  0 2438.75 3931.6 1846.81    0 3390.69 3491.91 4040.32 3759.64 4210.57 2612.16 4606.65 2535.59    0 599668  12952 5000068
  7183.87 1145819 241190 160160    0  0  0 2645.39 4049.89 2128.2    0 3586.61 3797.04 4225.41 4108.46 4473.73 4546.81 4920.71 2479.4    0 600079  12379 5000068
  7197.28 1148183 245999 150516    0  0  0 2642.06 4089.4 2039.19    0 3741.44 3871.18 4276.71 4257.97 4471.82 5794.75 4923.75 2505.37    0 601799  12187 5000068
  7211.67 1150020 250173 159061    0  0  0 2467.13 4007.84 2040.14    0 3613.88 3770.59 4233.55 4110.33 4423.36 5585.96 4746.26 2316.44    0 601645  11872 5000069
  7227.22 1152328 255187 149938    0  0  0 2461.62 4045.35 2011.9    0 3589.37 3774.29 4175.17 4029.59 4202 5082.93 4766.24 2229.73    0 602215  11658 5000068
  7244.03 1154275 260117 175927    0  0  0 2459 4118.75 2127.97    0 3549.57 3886.69 4300.93 4131.9 4434.35 4205.72 5023.43 2386.25    0 601460  12015 5000068
  7262.19 1157099 266502 174456    0  0  0 2520.06 4321.54 2182.83    0 3783.75 3998.57 4269.56 4274.04 4462.48 4136.38 5025.71 2389.47    0 602742  12925 5000068
  7281.49 1159544 272711 161382    0  0  0 2610.65 4533.95 2290.77    0 3907.07 4202.16 4440.45 4452.67 4584.64 6496.58 5128.28 2379.9    0 602596  12248 5000068
  7302.22 1162358 280393 185341    0  0  0 2570.99 4486.37 2246.41    0 3829.07 4115.61 4504.16 4385.99 4407.74 6436.32 5120.02 2178.51    0 603089  13161 5000068
  7324.05 1164521 286816 193386    0  0  0 2591.57 4526.46 2222.5    0 3933.37 4240.01 4418.01 4458.19 4655.57 3366.91 5148.97 2221.96    0 601612  12365 5000069
  7347.34 1168504 297017 195092    0  0  0 2566.53 4612.3 2225.68    0 4007.48 4193.53 4610.14 4707.12 4769.87 3137.24 5340.28 2111.24    0 603948  13424 5000068
  7371.52 1171543 305888 188024    0  0  0 2635.33 4767.58 2345.52    0 4196.13 4317.94 4702.79 4642.3 4740.67 3190.99 5441.88 2098.67    0 603927  12225 5000068
  7396.84 1174797 316077 216429    0  0  0 2600.7 4813.14 2411.67    0 4153.87 4371.36 4745.66 4823.31 4641.77 3155.06 5538.09 2119.76    0 604120  12910 5000068
  7423.12 1178333 326817 223206    0  0  0 2685.9 4960.79 2419.48    0 4324.76 4504.35 4863.13 4890.55 4787.3 3474.63 5604.1 2121.3    0 604587  12302 5000068
  7429.97 1179138 329615 226360    0  0  0 2753.24 4830.38 2412.93    0 4267.2 4597.73 4762.58 4791.18 4785.53 3313.91 5663.67 2127.68    0 604512  12260 5000068