Folder: EstraPy/example/Manganese/data

Note: README.md
# EstraPy2

Read the documentation at [https://ramsteak.github.io/EstraPy2/](https://ramsteak.github.io/EstraPy2/)

File: AD09_a_01.xdi
# XDI/1.0 GSE/1.0
# Scan-start_time: 2024-10-08T03:42:36
# Column.1: energy eV
# Column.2: I0_eh2
# Column.3: I1_eh2
# Column.4: IX_eh2
# Column.5: IR_eh2
# Column.6: c8
# Column.7: c9
# Column.8: fluo01
# Column.9: fluo02
# Column.10: fluo03
# Column.11: fluo04
# Column.12: fluo05
# Column.13: fluo06
# Column.14: fluo07
# Column.15: fluo08
# Column.16: fluo09
# Column.17: fluo10
# Column.18: fluo11
# Column.19: fluo12
# Column.20: fluo13
# Column.21: I0_eh1
# Column.22: I1_eh1
# Column.23: IX_eh1
# Mono.name: Si 111
# Mono.d_spacing: 3.134692
# Mono.notes: LNT cooled
# Beamline.name: BM08-LISA
# Facility.name: ESRF
# Facility.xray_source: Bending magnet
# ---------
# BraggEnergy I0_eh2 I1_eh2 IX_eh2 IR_eh2 c8 c9  fluo01  fluo02 fluo03 fluo04 fluo05  fluo06 fluo07  fluo08  fluo09 fluo10  fluo11 fluo12 fluo13 I0_eh1 I1_eh1 IX_eh1
  6394.6  25677  2541  1993    0  0  0 0.000000 0.000000    0    0  0.00 0.000000    0 0.000000 0.000000    0 0.000000    0    0  26923    0 1000015
  6429.7  27597  2670  1994    0  0  0 0.000000 0.000000    0    0  0.00 0.000000    0 0.000000 0.000000    0 1.000000    0    0  27109    0 1000015
  6464.96  29491  2783  2077    0  0  0 0.000000 1.333333    0    0  0.00 0.000000    0 0.000000 0.000000    0 0.000000    0    0  27199    0 1000015
  6499.85  31557  2935  2145    0  0  0 0.000000 1.000000    0    0  0.00 0.000000    0 0.000000 0.000000    0 0.000000    0    0  27321    0 1000015
  6529.99  31884  2996  2188    0  0  0 0.000000 0.000000    0    0  0.00 0.000000    0 0.000000 0.000000    0 0.000000    0    0  26175    0 1000013
  6532.07  33543  3080  2205    0  0  0 0.000000 0.000000    0    0  0.00 0.000000    0 1.444444 0.000000    0 0.000000    0    0  27507    0 1000014
  6534.16  33625  3085  2206    0  0  0 0.000000 0.000000    0    0  0.00 0.000000    0 0.000000 0.000000    0 0.000000    0    0  27491    0 1000014
  6536.28  33686  3092  2208    0  0  0 0.000000 0.000000    0    0  0.00 0.000000    0 0.000000 0.000000    0 0.000000    0    0  27474    0 1000015
  6538.37  33609  3092  2176    0  0  0 0.000000 0.000000    0    0  0.00 0.000000    0 1.000000 0.000000    0 0.000000    0    0  27473    0 1000015
  6540.42  33134  3073  2213    0  0  0 0.000000 0.000000    0    0  0.00 0.000000    0 0.000000 0.000000    0 0.000000    0    0  27465    0 1000014
  6542.51  33110  3078  2212    0  0  0 0.000000 0.000000    0    0  0.00 0.000000    0 0.000000 0.000000    0 0.000000    0    0  27460    0 1000015
  6544.59  32336  3042  2183    0  0  0 0.000000 0.000000    0    0  0.00 0.000000    0 0.000000 0.000000    0 0.000000    0    0  27455    0 1000014
  6546.66  30621  2961  2143    0  0  0 0.000000 0.000000    0    0  0.00 0.000000    1 0.000000 0.000000    0 0.000000    0    0  27441    0 1000015
  6548.72  28997  2886  2091    0  0  0 0.000000 0.000000    0    0  0.00 0.000000    0 0.000000 0.000000    0 0.000000    0    0  27446    0 1000014
  6550.79  27769  2831  2095    0  0  0 0.000000 1.000000    0    0  0.00 0.000000    0 0.000000 0.000000    0 0.000000    0    0  27448    0 1000014
  6552.88  26397  2768  2097    0  0  0 0.000000 0.000000    0    0  0.00 0.000000    0 0.000000 0.000000    0 0.000000    0    0  27448    0 1000014
  6554.97  25219  2714  2030    0  0  0 0.000000 0.000000    0    0  0.00 0.000000    0 0.000000 0.000000    0 0.000000    0    0  27442    0 1000014
  6557.05  24535  2684  2029    0  0  0 0.000000 0.000000    0    0  0.00 0.000000    0 0.000000 0.000000    0 0.000000    0    0  27448    0 1000014
  6559.16  23791  2653  2010    0  0  0 0.000000 0.000000    0    0  0.00 0.000000    0 0.000000 0.000000    0 0.000000    0    0  27438    0 1000013
  6561.29  23061  2615  1954    0  0  0 0.000000 0.000000    0    0  0.00 0.000000    0 0.000000 0.000000    0 0.000000    0    0  27459    0 1000014
  6563.39  22949  2616  2017    0  0  0 0.000000 0.000000    0    0  0.00 0.000000    0 0.000000 0.000000    0 0.000000    0    0  27467    0 1000014
  6565.48  23469  2644  2007    0  0  0 0.000000 0.000000    0    0  0.00 0.000000    0 0.000000 0.000000    0 0.000000    0    0  27463    0 1000014
  6567.58  24192  2680  2016    0  0  0 0.000000 0.000000    0    0  0.00 0.000000    0 0.000000 0.000000    0 0.000000    0    0  27452    0 1000014
  6569.68  24743  2711  2053    0  0  0 0.000000 0.000000    0    0  0.00 0.000000    0 0.000000 0.000000    0 0.000000    0    0  27453    0 1000015
  6571.78  25109  2733  2044    0  0  0 0.000000 0.000000    0    0  0.00 0.000000    0 0.000000 0.000000    0 0.000000    0    0  27461    0 1000015
  6573.89  25427  2752  2091    0  0  0 0.000000 0.000000    0    0  0.00 0.000000    0 0.000000 0.000000    0 0.000000    0    0  27467    0 1000015
  6580.09  26336  2804  2076    0  0  0 0.000000 0.000000    0    0  0.00 0.000000    0 0.000000 0.000000    0 1.000000    0    0  27494    0 1000014
  6588.56  27602  2879  2114    0  0  0 0.000000 0.000000    0    0  0.00 0.000000    0 0.000000 0.000000    0 0.000000    0    0  27497    0 1000014
  6598.07  27396  2883  2107    0  0  0 0.000000 0.000000    0    0  0.00 0.000000    0 0.000000 0.000000    0 1.000000    0    0  27537    0 1000014
  6608.53  27823  2919  2135    0  0  0 0.000000 0.000000    0    0  0.00 1.500000    0 0.000000 0.000000    0 0.000000    0    0  27584    0 1000014
  6619.88  28237  2956  2141    0  0  0 0.000000 0.000000    0    0  0.00 0.000000    0 0.000000 0.000000    0 0.000000    0    0  27622    0 1000015
  6632.01  28440  2989  2178    0  0  0 0.000000 0.000000    0    0  0.00 0.000000    0 0.000000 0.000000    0 0.000000    0    0  27643    0 1000014
  6645.27  29510  3066  2186    0  0  0 0.000000 0.000000    0    0  0.00 0.000000    0 0.000000 0.000000    0 0.000000    0    0  27681    0 1000013
  6659.39  30611  3160  2231    0  0  0 0.000000 0.000000    0    0  0.00 0.000000    0 0.000000 0.000000    0 0.000000    0    0  27710    0 1000014
  6674.34  31605  3239  2229    0  0  0 0.000000 0.000000    0    0  0.00 0.000000    0 0.000000 0.000000    0 0.000000    0    0  27759    0 1000014
  6690.54  32352  3299  2283    0  0  0 0.000000 0.000000    0    0  0.00 0.000000    0 0.000000 0.000000    0 0.000000    0    0  27786    0 1000014
  6707.59  33184  3382  2296    0  0  0 0.000000 0.000000    0    0  0.00 0.000000    0 0.000000 0.000000    0 0.000000    0    0  27815    0 1000013
  6725.59  34395  3489  2352    0  0  0 0.000000 0.000000    0    0  0.00 0.000000    0 0.000000 0.000000    0 0.000000    0    0  27879    0 1000014
  6744.61  35663  3601  2365    0  0  0 0.000000 0.000000    0    0  0.00 0.000000    0 0.000000 0.000000    0 0.000000    0    0  27930    0 1000014
  6764.29  37022  3727  2440    0  0  0 0.000000 0.000000    0    0  0.00 0.000000    0 0.000000 0.000000    0 0.000000    0    0  27950    0 1000014
  6785.09  38548  3868  2524    0  0  0 0.000000 0.000000    0    0  0.00 0.000000    0 0.000000 0.000000    0 0.000000    0    0  28031    0 1000014
  6806.8  39940  4009  2557    0  0  0 0.000000 0.000000    0    0  0.00 0.000000    0 0.000000 0.000000    0 0.000000    0    0  28016    0 1000014
  6829.67  41505  4167  2617    0  0  0 0.000000 0.000000    0    0  0.00 0.000000    0 0.000000 0.000000    0 0.000000    0    0  28099    0 1000014
  6853.42  43248  4345  2677    0  0  0 0.000000 0.000000    0    0  0.00 0.000000    0 0.000000 0.000000    0 0.000000    0    0  28135    0 1000015
  6878.09  45204  4547  2787    0  0  0 0.000000 0.000000    0    0  0.00 0.000000    0 0.000000 0.000000    0 0.000000    0    0  28182    0 1000014
  6903.42  47123  4755  2834    0  0  0 0.000000 0.000000    0    0  0.00 0.000000    0 0.000000 0.000000    0 0.000000    0    0  28207    0 1000014
  6929.66  49116  4980  2927    0  0  0 0.000000 0.000000    0    0  0.00 0.000000    1 0.000000 0.000000    0 0.000000    0    0  28204    0 1000015
  6956.88  51300  5230  3001    0  0  0 0.000000 0.000000    0    0  0.00 1.250000    0 0.000000 0.000000    0 0.000000    0    0  28223    0 1000014
  6985  53625  5503  3103    0  0  0 0.000000 0.000000    0    0  0.00 0.000000    0 0.000000 0.000000    0 0.000000    0    0  28252    0 1000014
  7014.17  56114  5803  3231    0  0  0 0.000000 0.000000    0    0  0.00 0.000000    0 0.000000 0.000000    0 0.000000    0    0  28277    0 1000014
  7044.07  58784  6132  3357    0  0  0 0.000000 0.000000    0    0  0.00 0.000000    0 0.000000 0.000000    0 0.000000    0    0  28312    0 1000014
  7074.8  61566  6489  3499    0  0  0 0.000000 0.000000    0    0  0.00 0.000000    1 0.000000 0.000000    0 0.000000    0    0  28321    0 1000014
  7106.61  64485  6879  3601    0  0  0 0.000000 0.000000    0    0  0.00 0.000000    0 0.000000 0.000000    0 0.000000    0    0  28335    0 1000015
  7139.31  63948  6982  2210    0  0  0 0.000000 0.000000    0    0  0.00 0.000000    0 0.000000 0.000000    0 0.000000    0    0  26976    0 1000014
  7173.19  67253  7432  2175    0  0  0 0.000000 0.000000    0    0  0.00 0.000000    0 0.000000 0.000000    0 0.000000    0    0  27013    0 1000014
  7208.18  70794  7933  2298    0  0  0 0.000000 0.000000    0    0  0.00 0.000000    0 0.000000 0.000000    0 0.000000    0    0  27108    0 1000014
  7243.71  74145  8432  2384    0  0  0 0.000000 0.000000    0    0  0.00 0.000000    0 0.000000 0.000000    0 0.000000    0    0  27054    0 1000014
  7280.39  77907  9000  2344    0  0  0 0.000000 0.000000    0    0  0.00 0.000000    0 0.000000 0.000000    0 0.000000    0    0  27093    0 1000015
  7291.21  79009  9171  2357    0  0  0 0.000000 0.000000    0    0  0.00 0.000000    0 0.000000 0.000000    0 0.000000    0    0  27089    0 1000014